<?xml version="1.0" encoding="UTF-8"?>

<Bundle xmlns="http://hl7.org/fhir">
  <id value="ex11"/>
  <meta>
    <profile value="https://www.ehealth.fgov.be/standards/fhir/etariff/StructureDefinition/be-etariff-response"/>
  </meta>
  <type value="message"/>
  <timestamp value="2015-07-14T11:15:37+02:00"/>
  <entry>
    <fullUrl value="urn:uuid:667b18ce-3d37-4581-9baa-6fada338038c"/>
    <resource>
      <MessageHeader>
        <id value="667b18ce-3d37-4581-9baa-6fada338038c"/>
        <meta>
          <profile value="https://www.ehealth.fgov.be/standards/fhir/mycarenet/StructureDefinition/be-messageheader"/>
        </meta>
        <eventCoding>
          <system value="https://www.ehealth.fgov.be/standards/fhir/mycarenet/CodeSystem/message-events"/>
          <code value="etariffresponse-consult"/>
        </eventCoding>
        <destination>
          <endpoint value="urn:uuid:1dc5d974-5447-4afe-a4ab-57081ca518c3"/>
          <receiver>
            <reference value="PractitionerRole/1dc5d974-5447-4afe-a4ab-57081ca518c3"/>
          </receiver>
        </destination>
        <sender>
          <reference value="Organization/cfabb40d-a53f-4c56-bc19-725ea669b358"/>
        </sender>
        <source>
          <endpoint value="urn:uuid:cfabb40d-a53f-4c56-bc19-725ea669b358"/>
        </source>
        <response>
          <identifier value="267b18ce-3d37-4581-9baa-6fada338038b"/>
          <code value="ok"/>
        </response>
        <focus>
          <reference value="ClaimResponse/0a0d60df-0340-45a6-a493-a5d67f74d693"/>
        </focus>
      </MessageHeader>
    </resource>
  </entry>
  <entry>
    <fullUrl value="urn:uuid:1dc5d974-5447-4afe-a4ab-57081ca518c3"/>
    <resource>
      <PractitionerRole>
        <id value="1dc5d974-5447-4afe-a4ab-57081ca518c3"/>
        <meta>
          <profile value="https://www.ehealth.fgov.be/standards/fhir/core/StructureDefinition/be-practitionerrole"/>
        </meta>
        <practitioner>
          <reference value="Practitioner/03972cc4-d781-4285-8d79-0f05810e1931"/>
        </practitioner>
        <code>
          <coding>
            <system value="https://www.ehealth.fgov.be/standards/fhir/core/CodeSystem/cd-hcparty"/>
            <code value="persdentist"/>
          </coding>
        </code>
      </PractitionerRole>
    </resource>
  </entry>
  <entry>
    <fullUrl value="urn:uuid:03972cc4-d781-4285-8d79-0f05810e1931"/>
    <resource>
      <Practitioner>
        <id value="03972cc4-d781-4285-8d79-0f05810e1931"/>
        <meta>
          <profile value="https://www.ehealth.fgov.be/standards/fhir/core/StructureDefinition/be-practitioner"/>
        </meta>
        <identifier>
          <system value="https://www.ehealth.fgov.be/standards/fhir/core/NamingSystem/nihdi"/>
          <value value="30202929001"/>
        </identifier>
        <name>
          <family value="Durand"/>
          <given value="Pierre"/>
        </name>
      </Practitioner>
    </resource>
  </entry>
  <entry>
    <fullUrl value="urn:uuid:cfabb40d-a53f-4c56-bc19-725ea669b358"/>
    <resource>
      <Organization>
        <id value="cfabb40d-a53f-4c56-bc19-725ea669b358"/>
        <meta>
          <profile value="https://www.ehealth.fgov.be/standards/fhir/core/StructureDefinition/be-organization"/>
        </meta>
        <identifier>
          <system value="https://www.ehealth.fgov.be/standards/fhir/core/NamingSystem/insurancenumber"/>
          <value value="300"/>
        </identifier>
        <name value="Union Nationale des Mutualités Socialistes - Nationaal Verbond van de Socialistische Mutualiteiten"/>
      </Organization>
    </resource>
  </entry>
  <entry>
    <fullUrl value="urn:uuid:a52efcb6-1f81-4333-a115-d45bd3183686"/>
    <resource>
      <Patient>
        <id value="a52efcb6-1f81-4333-a115-d45bd3183686"/>
        <meta>
          <profile value="https://www.ehealth.fgov.be/standards/fhir/core/StructureDefinition/be-patient"/>
        </meta>
        <identifier>
          <system value="https://www.ehealth.fgov.be/standards/fhir/core/NamingSystem/ssin"/>
          <value value="70319666960"/>
        </identifier>
        <identifier>
           <system value="https://www.ehealth.fgov.be/standards/fhir/core/NamingSystem/insurancymembership"/>
          <value value="1234567890123"/>
          <assigner>
            <identifier>
              <system value="https://www.ehealth.fgov.be/standards/fhir/core/NamingSystem/insurancenumber"/>
              <value value="301"/>
            </identifier>
          </assigner>
        </identifier>
        <name>
          <family value="Dupont"/>
          <given value="Jean"/>
        </name>
        <gender value="male"/>
      </Patient>
    </resource>
  </entry>
  <entry>
    <fullUrl value="urn:uuid:5330da7f-db68-4380-a265-d364aeed8653"/>
    <resource>
      <Coverage>
        <id value="5330da7f-db68-4380-a265-d364aeed8653"/>
        <status value="active"/>
        <type>
		  <coding>
			<system value="http://terminology.hl7.org/CodeSystem/v3-ActCode"/>
            <code value="PUBLICPOL"/>
		  </coding>
        </type>
        <beneficiary>
			<reference value="Patient/a52efcb6-1f81-4333-a115-d45bd3183686"/>
        </beneficiary>
        <payor>
			<reference value="Organization/cfabb40d-a53f-4c56-bc19-725ea669b358"/>
        </payor>
        <class>
			<type>
			  <coding>
				<system value="http://terminology.hl7.org/CodeSystem/coverage-class"/>
				<code value="plan"/>
			  </coding>
			</type>
			<value value="Mandatory Health Insurance"/>
        </class>
        <class>
			<type>
			  <coding>
				<system value="http://terminology.hl7.org/CodeSystem/coverage-class"/>
				<code value="plan"/>
			  </coding>
			</type>
			<value value="110"/>
        </class>
        <class>
			<type>
			  <coding>
				<system value="http://terminology.hl7.org/CodeSystem/coverage-class"/>
				<code value="subplan"/>
			  </coding>
			</type>
			<value value="110"/>
        </class>
      </Coverage>
    </resource>
  </entry>
  <entry>
    <fullUrl value="urn:uuid:0a0d60df-0340-45a6-a493-a5d67f74d693"/>
    <resource>
      <ClaimResponse>
        <id value="0a0d60df-0340-45a6-a493-a5d67f74d693"/>
        <meta>
          <profile value="https://www.ehealth.fgov.be/standards/fhir/etariff/StructureDefinition/be-etariff-claimresponse"/>
        </meta>
        <status value="active"/>
        <type>
          <coding>
            <system value="http://terminology.hl7.org/CodeSystem/claim-type"/>
            <code value="professional"/>
          </coding>
        </type>
        <subType>
        <!-- attestationType -->
          <coding>
            <system value="https://www.ehealth.fgov.be/standards/fhir/etariff/CodeSystem/be-cs-etariff-types"/>
            <code value="dentistry"/>
          </coding>
        </subType>
        <use value="predetermination"/>
        <patient>
          <reference value="Patient/a52efcb6-1f81-4333-a115-d45bd3183686"/>
        </patient>
        <created value="2015-07-14T11:15:30+02:00"/>
        <insurer>
          <reference value="Organization/cfabb40d-a53f-4c56-bc19-725ea669b358"/>
        </insurer>
        <requestor>
          <reference value="PractitionerRole/1dc5d974-5447-4afe-a4ab-57081ca518c3"/>
        </requestor>
        <outcome value="complete"/>
        <addItem>
          <extension url="https://www.ehealth.fgov.be/standards/fhir/mycarenet/StructureDefinition/be-ext-mycarenet-item-reimbursement">
            <!-- reimbursement for item -->
			<valueMoney>
			    <value value="15.00"/>
				<currency value="EUR"/>
			</valueMoney>
		  </extension>
          <extension url="https://www.ehealth.fgov.be/standards/fhir/mycarenet/StructureDefinition/be-ext-mycarenet-item-patientfee">
            <!-- patientfee for item -->
			<valueMoney>
			    <value value="10.00"/>
				<currency value="EUR"/>
			</valueMoney>
		  </extension>	
          <extension url="https://www.ehealth.fgov.be/standards/fhir/etariff/StructureDefinition/be-ext-etariff-item-commitment">
            <!-- commitment for item -->
			<valueString value="123456789012345678901234567890120000000000002000"/>
		  </extension>		  			  			  	          
          <itemSequence value="1"/>
          <provider>
          <!-- healthcare provider -->
            <reference value="PractitionerRole/1dc5d974-5447-4afe-a4ab-57081ca518c3"/>
          </provider>
          <productOrService>
          <!-- service identifier for item -->
            <coding>
              <system value="https://www.ehealth.fgov.be/standards/fhir/core/NamingSystem/be-ns-nihdi-nomenclature"/>
              <code value="373590"/>
            </coding>
          </productOrService>
          <!-- date for item -->
          <servicedDate value="2013-01-12"/>
          <!-- count for item -->
          <quantity>
			  <value value="1"/>
		  </quantity>	  
          <unitPrice>
			  <value value="25"/>
			  <currency value="EUR"/>
          </unitPrice>
          <net>
          <!-- fee for item -->
			  <value value="25"/>
			  <currency value="EUR"/>
          </net>
          <adjudication>
			  <category>
				  <coding>
					  <system value="https://www.ehealth.fgov.be/standards/fhir/mycarenet/CodeSystem/decision-values"/>
					  <code value="tariff"/> 
				  </coding>
			  </category>
          </adjudication>
        </addItem>
        <addItem>		  	          
          <itemSequence value="2"/>
          <provider>
          <!-- healthcare provider -->
            <reference value="PractitionerRole/1dc5d974-5447-4afe-a4ab-57081ca518c3"/>
          </provider>
          <productOrService>
          <!-- service identifier for item -->
            <coding>
              <system value="https://www.ehealth.fgov.be/standards/fhir/core/NamingSystem/be-ns-nihdi-nomenclature"/>
              <code value="302153"/>
            </coding>
          </productOrService>
          <adjudication>
              <extension url="https://www.ehealth.fgov.be/standards/fhir/etariff/StructureDefinition/be-ext-etariff-adjudication-refusalserviceidentifier">
					<!-- refusal service identifier for adjudication -->
				<valueCodeableConcept>
					<coding>
					  <system value="https://www.ehealth.fgov.be/standards/fhir/core/NamingSystem/be-ns-nihdi-nomenclature"/>
					  <code value="302153"/>
					</coding>
				</valueCodeableConcept>
			  </extension>
			  <extension url="https://www.ehealth.fgov.be/standards/fhir/etariff/StructureDefinition/be-ext-etariff-adjudication-refusalservicedate">
					<!-- refusal service date for adjudication -->
				<valueDate value="2011-09-25"/>
			  </extension>
			  <category>
				  <coding>
					  <system value="https://www.ehealth.fgov.be/standards/fhir/mycarenet/CodeSystem/decision-values"/>
					  <code value="refusal"/> 
				  </coding>
			  </category>
			  <reason>
				  <coding>
					<system value="https://www.ehealth.fgov.be/standards/fhir/etariff/CodeSystem/be-cs-refusal-values"/>
					<code value="002"/>
				  </coding>
			  </reason>
          </adjudication>
        </addItem>
        <insurance>
			<sequence value="1"/>
            <focal value="true"/>
			<coverage>
				<reference value="Coverage/5330da7f-db68-4380-a265-d364aeed8653"/>
			</coverage> 
        </insurance>
      </ClaimResponse>
    </resource>
  </entry>
</Bundle>